File: xrd_data/mp-1245006_Ti.csv
# 2theta, Intensity
10,0.0277407
10.04,0.0279438
10.08,0.0281496
10.12,0.0283582
10.16,0.0285697
10.2,0.0287841
10.24,0.0290016
10.28,0.0292221
10.32,0.0294458
10.36,0.0296727
10.4,0.0299029
10.44,0.0301366
10.48,0.0303737
10.52,0.0306144
10.56,0.0308587
10.6,0.0311068
10.64,0.0313588
10.68,0.0316147
10.72,0.0318747
10.76,0.0321389
10.8,0.0324074
10.84,0.0326804
10.88,0.0329579
10.92,0.0332401
10.96,0.0335271
11,0.0338191
11.04,0.0341163
11.08,0.0344188
11.12,0.0347267
11.16,0.0350403
11.2,0.0353598
11.24,0.0356853
11.28,0.036017
11.32,0.0363552
11.36,0.0367002
11.4,0.0370521
11.44,0.0374111
11.48,0.0377777
11.52,0.0381521
11.56,0.0385345
11.6,0.0389253
11.64,0.0393249
11.68,0.0397336
11.72,0.0401518
11.76,0.0405799
11.8,0.0410185
11.84,0.0414678
11.88,0.0419285
11.92,0.0424011
11.96,0.0428862
12,0.0433844
12.04,0.0438963
12.08,0.0444227
12.12,0.0449644
12.16,0.0455222
12.2,0.046097
12.24,0.0466898
12.28,0.0473016
12.32,0.0479336
12.36,0.0485871
12.4,0.0492634
12.44,0.0499639
12.48,0.0506904
12.52,0.0514447
12.56,0.0522286
12.6,0.0530443
12.64,0.0538942
12.68,0.0547809
12.72,0.0557074
12.76,0.0566768
12.8,0.0576928
12.84,0.0587593
12.88,0.0598808
12.92,0.0610623
12.96,0.0623095
13,0.0636288
13.04,0.0650274
13.08,0.0665134
13.12,0.0680963
13.16,0.0697867
13.2,0.0715969
13.24,0.0735411
13.28,0.0756357
13.32,0.0778999
13.36,0.0803561
13.4,0.0830305
13.44,0.0859543
13.48,0.0891646
13.52,0.0927057
13.56,0.0966312
13.6,0.101006
13.64,0.10591
13.68,0.111441
13.72,0.117723
13.76,0.12491
13.8,0.133199
13.84,0.142847
13.88,0.154186
13.92,0.167662
13.96,0.183879
14,0.20367
14.04,0.228217
14.08,0.25924
14.12,0.299321
14.16,0.352494
14.2,0.425358
14.24,0.529365
14.28,0.685951
14.32,0.939309
14.36,1.39041
14.4,2.27609
14.44,4.04347
14.48,7.02834
14.52,10.3624
14.56,11.711
14.6,9.84562
14.64,6.42853
14.68,3.64859
14.72,2.07677
14.76,1.29624
14.8,0.893616
14.84,0.663966
14.88,0.520558
14.92,0.424813
14.96,0.35767
15,0.308793
15.04,0.272157
15.08,0.244048
15.12,0.222069
15.16,0.204615
15.2,0.190578
15.24,0.179172
15.28,0.169829
15.32,0.162125
15.36,0.155743
15.4,0.150441
15.44,0.146031
15.48,0.142365
15.52,0.139326
15.56,0.13682
15.6,0.134772
15.64,0.133119
15.68,0.131812
15.72,0.130808
15.76,0.130073
15.8,0.129577
15.84,0.129296
15.88,0.12921
15.92,0.129301
15.96,0.129555
16,0.129959
16.04,0.130503
16.08,0.131178
16.12,0.131976
16.16,0.13289
16.2,0.133917
16.24,0.13505
16.28,0.136286
16.32,0.137623
16.36,0.139057
16.4,0.140588
16.44,0.142213
16.48,0.143932
16.52,0.145744
16.56,0.147649
16.6,0.149648
16.64,0.15174
16.68,0.153927
16.72,0.15621
16.76,0.15859
16.8,0.16107
16.84,0.163651
16.88,0.166336
16.92,0.169127
16.96,0.172027
17,0.17504
17.04,0.178169
17.08,0.181417
17.12,0.184789
17.16,0.18829
17.2,0.191924
17.24,0.195696
17.28,0.199612
17.32,0.203678
17.36,0.2079
17.4,0.212285
17.44,0.21684
17.48,0.221573
17.52,0.226493
17.56,0.231608
17.6,0.236928
17.64,0.242464
17.68,0.248225
17.72,0.254225
17.76,0.260475
17.8,0.266988
17.84,0.273781
17.88,0.280868
17.92,0.288265
17.96,0.295992
18,0.304066
18.04,0.312511
18.08,0.321347
18.12,0.3306
18.16,0.340295
18.2,0.350463
18.24,0.361133
18.28,0.37234
18.32,0.38412
18.36,0.396514
18.4,0.409565
18.44,0.42332
18.48,0.437833
18.52,0.45316
18.56,0.469365
18.6,0.486516
18.64,0.504689
18.68,0.52397
18.72,0.544451
18.76,0.566235
18.8,0.589438
18.84,0.614187
18.88,0.640626
18.92,0.668914
18.96,0.699232
19,0.731782
19.04,0.766794
19.08,0.804525
19.12,0.845272
19.16,0.889371
19.2,0.937207
19.24,0.989223
19.28,1.04593
19.32,1.10793
19.36,1.1759
19.4,1.25066
19.44,1.33316
19.48,1.42454
19.52,1.52614
19.56,1.6396
19.6,1.76686
19.64,1.91033
19.68,2.07296
19.72,2.25842
19.76,2.47135
19.8,2.71765
19.84,3.00497
19.88,3.34339
19.92,3.74647
19.96,4.23294
20,4.82939
20.04,5.57523
20.08,6.53183
20.12,7.80193
20.16,9.57523
20.2,12.2434
20.24,16.6451
20.28,24.2209
20.32,35.9008
20.36,49.3183
20.4,59.7322
20.44,68.4972
20.48,88.3628
20.52,139.465
20.56,237.006
20.6,357.222
20.64,419.456
20.68,366.684
20.72,246.137
20.76,140.499
20.8,78.5579
20.84,47.5626
20.88,31.7185
20.92,22.7817
20.96,17.243
21,13.5601
21.04,10.9816
21.08,9.10401
21.12,7.6943
21.16,6.60951
21.2,5.75789
21.24,5.07828
21.28,4.52859
21.32,4.07909
21.36,3.70832
21.4,3.40046
21.44,3.14369
21.48,2.92907
21.52,2.74975
21.56,2.60045
21.6,2.47711
21.64,2.3766
21.68,2.29654
21.72,2.23518
21.76,2.19128
21.8,2.16409
21.84,2.15327
21.88,2.15891
21.92,2.18153
21.96,2.22215
22,2.28231
22.04,2.36421
22.08,2.47085
22.12,2.60625
22.16,2.77582
22.2,2.98674
22.24,3.24876
22.28,3.57513
22.32,3.98428
22.36,4.50232
22.4,5.16714
22.44,6.03546
22.48,7.1953
22.52,8.7895
22.56,11.0633
22.6,14.4689
22.64,19.922
22.68,29.4816
22.72,48.0128
22.76,85.3246
22.8,151.291
22.84,232.322
22.88,276.48
22.92,244.41
22.96,165.332
23,94.5891
23.04,52.7197
23.08,31.7433
23.12,21.0623
23.16,15.066
23.2,11.3629
23.24,8.90571
23.28,7.18672
23.32,5.93448
23.36,4.9926
23.4,4.26548
23.44,3.69188
23.48,3.23105
23.52,2.85498
23.56,2.54387
23.6,2.28342
23.64,2.06307
23.68,1.8749
23.72,1.71285
23.76,1.57223
23.8,1.44936
23.84,1.34135
23.88,1.24583
23.92,1.16093
23.96,1.0851
24,1.01707
24.04,0.955776
24.08,0.900348
24.12,0.850042
24.16,0.804233
24.2,0.762388
24.24,0.724053
24.28,0.688837
24.32,0.656402
24.36,0.626457
24.4,0.598748
24.44,0.573051
24.48,0.549173
24.52,0.526942
24.56,0.506206
24.6,0.486832
24.64,0.4687
24.68,0.451705
24.72,0.435751
24.76,0.420753
24.8,0.406636
24.84,0.393331
24.88,0.380776
24.92,0.368915
24.96,0.357697
25,0.347077
25.04,0.337012
25.08,0.327465
25.12,0.318401
25.16,0.309788
25.2,0.301597
25.24,0.293802
25.28,0.286377
25.32,0.279301
25.36,0.272552
25.4,0.266112
25.44,0.259963
25.48,0.254088
25.52,0.248473
25.56,0.243103
25.6,0.237966
25.64,0.23305
25.68,0.228343
25.72,0.223835
25.76,0.219517
25.8,0.215379
25.84,0.211414
25.88,0.207614
25.92,0.20397
25.96,0.200478
26,0.19713
26.04,0.19392
26.08,0.190844
26.12,0.187896
26.16,0.185072
26.2,0.182367
26.24,0.179778
26.28,0.1773
26.32,0.174931
26.36,0.172667
26.4,0.170506
26.44,0.168444
26.48,0.16648
26.52,0.164612
26.56,0.162838
26.6,0.161156
26.64,0.159565
26.68,0.158064
26.72,0.156652
26.76,0.155328
26.8,0.154093
26.84,0.152947
26.88,0.151889
26.92,0.15092
26.96,0.150041
27,0.149253
27.04,0.148557
27.08,0.147957
27.12,0.147453
27.16,0.147049
27.2,0.146748
27.24,0.146553
27.28,0.14647
27.32,0.146502
27.36,0.146657
27.4,0.14694
27.44,0.147358
27.48,0.147922
27.52,0.148639
27.56,0.149522
27.6,0.150583
27.64,0.151836
27.68,0.153299
27.72,0.15499
27.76,0.15693
27.8,0.159146
27.84,0.161665
27.88,0.164523
27.92,0.167757
27.96,0.171413
28,0.175546
28.04,0.180219
28.08,0.185507
28.12,0.191498
28.16,0.198302
28.2,0.206047
28.24,0.214891
28.28,0.225029
28.32,0.2367
28.36,0.250205
28.4,0.265923
28.44,0.284338
28.48,0.306079
28.52,0.331971
28.56,0.363118
28.6,0.401025
28.64,0.447786
28.68,0.506391
28.72,0.581237
28.76,0.679019
28.8,0.810378
28.84,0.993145
28.88,1.25929
28.92,1.67137
28.96,2.36552
29,3.66139
29.04,6.24836
29.08,11.0426
29.12,17.6827
29.16,22.6999
29.2,22.247
29.24,17.5907
29.28,13.447
29.32,11.6841
29.36,10.4709
29.4,8.1774
29.44,5.4019
29.48,3.29824
29.52,2.09001
29.56,1.44843
29.6,1.08564
29.64,0.858974
29.68,0.705552
29.72,0.595667
29.76,0.513688
29.8,0.45061
29.84,0.400883
29.88,0.360905
29.92,0.328238
29.96,0.301176
30,0.278495
30.04,0.259293
30.08,0.242892
30.12,0.228777
30.16,0.216545
30.2,0.205884
30.24,0.196541
30.28,0.188317
30.32,0.181048
30.36,0.174599
30.4,0.168862
30.44,0.163744
30.48,0.159169
30.52,0.155072
30.56,0.151399
30.6,0.148103
30.64,0.145146
30.68,0.142492
30.72,0.140112
30.76,0.137983
30.8,0.136081
30.84,0.134388
30.88,0.132887
30.92,0.131565
30.96,0.13041
31,0.129409
31.04,0.128555
31.08,0.12784
31.12,0.127257
31.16,0.1268
31.2,0.126465
31.24,0.126248
31.28,0.126146
31.32,0.126158
31.36,0.126283
31.4,0.12652
31.44,0.12687
31.48,0.127335
31.52,0.127917
31.56,0.128621
31.6,0.129449
31.64,0.13041
31.68,0.131511
31.72,0.13276
31.76,0.13417
31.8,0.135754
31.84,0.13753
31.88,0.139518
31.92,0.141743
31.96,0.144236
32,0.147034
32.04,0.150186
32.08,0.153749
32.12,0.157798
32.16,0.162427
32.2,0.16776
32.24,0.173955
32.28,0.181228
32.32,0.189868
32.36,0.200278
32.4,0.213026
32.44,0.228945
32.48,0.249286
32.52,0.276013
32.56,0.312353
32.6,0.363943
32.64,0.441425
32.68,0.566978
32.72,0.791687
32.76,1.23448
32.8,2.10997
32.84,3.54444
32.88,5.05259
32.92,5.53257
32.96,4.54513
33,2.95731
33.04,1.72885
33.08,1.05134
33.12,0.717213
33.16,0.544864
33.2,0.447043
33.24,0.386886
33.28,0.347836
33.32,0.321638
33.36,0.303786
33.4,0.291645
33.44,0.283595
33.48,0.278594
33.52,0.275954
33.56,0.275213
33.6,0.276054
33.64,0.278267
33.68,0.281713
33.72,0.286312
33.76,0.292032
33.8,0.298884
33.84,0.306925
33.88,0.316264
33.92,0.327077
33.96,0.339638
34,0.354369
34.04,0.37194
34.08,0.39347
34.12,0.420949
34.16,0.458268
34.2,0.513908
34.24,0.607796
34.28,0.782429
34.32,1.09171
34.36,1.50522
34.4,1.80177
34.44,1.74728
34.48,1.41655
34.52,1.08355
34.56,0.889497
34.6,0.812552
34.64,0.799003
34.68,0.81802
34.72,0.856993
34.76,0.911466
34.8,0.980513
34.84,1.0651
34.88,1.16759
34.92,1.29176
34.96,1.44307
35,1.62935
35.04,1.86186
35.08,2.15713
35.12,2.54017
35.16,3.05023
35.2,3.75197
35.24,4.75842
35.28,6.28318
35.32,8.77185
35.36,13.2518
35.4,22.1121
35.44,39.6419
35.48,68.2886
35.52,98.2083
35.56,107.429
35.6,87.486
35.64,55.8409
35.68,31.4888
35.72,18.1064
35.76,11.5505
35.8,8.26144
35.84,6.60351
35.88,6.02813
35.92,6.4073
35.96,7.3744
36,7.8915
36.04,7.08274
36.08,5.37473
36.12,3.81666
36.16,2.84802
36.2,2.32896
36.24,2.04542
36.28,1.8791
36.32,1.77806
36.36,1.71891
36.4,1.69004
36.44,1.68525
36.48,1.70121
36.52,1.73627
36.56,1.78996
36.6,1.86272
36.64,1.95582
36.68,2.07134
36.72,2.21231
36.76,2.38287
36.8,2.58857
36.84,2.83683
36.88,3.1376
36.92,3.50435
36.96,3.95557
37,4.51716
37.04,5.22622
37.08,6.1374
37.12,7.33392
37.16,8.94773
37.2,11.1989
37.24,14.4786
37.28,19.5421
37.32,28.0049
37.36,43.6501
37.4,75.0324
37.44,135.645
37.48,227.326
37.52,308.914
37.56,315.285
37.6,240.502
37.64,146.611
37.68,81.2205
37.72,46.6811
37.76,29.5325
37.8,20.3804
37.84,14.9693
37.88,11.4932
37.92,9.11991
37.96,7.4239
38,6.16813
38.04,5.21152
38.08,4.46565
38.12,3.87271
38.16,3.39359
38.2,3.00111
38.24,2.67595
38.28,2.40419
38.32,2.17591
38.36,1.98445
38.4,1.82682
38.44,1.70572
38.48,1.63249
38.52,1.61902
38.56,1.64119
38.6,1.61693
38.64,1.48548
38.68,1.29164
38.72,1.11875
38.76,0.996437
38.8,0.911391
38.84,0.846802
38.88,0.793602
38.92,0.747686
38.96,0.707046
39,0.670551
39.04,0.637472
39.08,0.607299
39.12,0.579646
39.16,0.554211
39.2,0.530747
39.24,0.509049
39.28,0.488942
39.32,0.470278
39.36,0.452926
39.4,0.436775
39.44,0.421725
39.48,0.407689
39.52,0.394589
39.56,0.382357
39.6,0.370932
39.64,0.36026
39.68,0.350293
39.72,0.340988
39.76,0.332309
39.8,0.324221
39.84,0.316695
39.88,0.309707
39.92,0.303234
39.96,0.29726
40,0.291768
40.04,0.286748
40.08,0.282191
40.12,0.278094
40.16,0.274456
40.2,0.27128
40.24,0.268573
40.28,0.266347
40.32,0.26462
40.36,0.263416
40.4,0.262764
40.44,0.262703
40.48,0.263284
40.52,0.264568
40.56,0.266631
40.6,0.269569
40.64,0.273504
40.68,0.278586
40.72,0.285009
40.76,0.293021
40.8,0.302943
40.84,0.315201
40.88,0.330365
40.92,0.349214
40.96,0.372844
41,0.402834
41.04,0.441543
41.08,0.492643
41.12,0.562157
41.16,0.66062
41.2,0.808108
41.24,1.04711
41.28,1.47635
41.32,2.31798
41.36,3.92093
41.4,6.33174
41.44,8.49119
41.48,8.73605
41.52,6.93855
41.56,4.71942
41.6,3.33932
41.64,2.94784
41.68,3.41818
41.72,5.00448
41.76,8.37482
41.8,13.5835
41.84,18.2501
41.88,18.6828
41.92,14.6052
41.96,9.49892
42,5.86033
42.04,3.70831
42.08,2.42207
42.12,1.65291
42.16,1.20302
42.2,0.932051
42.24,0.757156
42.28,0.636682
42.32,0.549745
42.36,0.48505
42.4,0.436032
42.44,0.398747
42.48,0.370893
42.52,0.351436
42.56,0.340701
42.6,0.341207
42.64,0.360295
42.68,0.416224
42.72,0.542715
42.76,0.760246
42.8,0.992709
42.84,1.06418
42.88,0.901679
42.92,0.641758
42.96,0.438773
43,0.324646
43.04,0.266395
43.08,0.234753
43.12,0.215588
43.16,0.202908
43.2,0.194013
43.24,0.187546
43.28,0.182764
43.32,0.179229
43.36,0.176672
43.4,0.174921
43.44,0.173867
43.48,0.173442
43.52,0.173605
43.56,0.174341
43.6,0.17565
43.64,0.177552
43.68,0.180083
43.72,0.183294
43.76,0.18726
43.8,0.192079
43.84,0.197878
43.88,0.204823
43.92,0.213129
43.96,0.223078
44,0.235043
44.04,0.249523
44.08,0.267196
44.12,0.289005
44.16,0.316285
44.2,0.350985
44.24,0.396035
44.28,0.456017
44.32,0.538445
44.36,0.656381
44.4,0.834344
44.44,1.12305
44.48,1.63869
44.52,2.65322
44.56,4.67317
44.6,8.05389
44.64,11.7611
44.68,13.1624
44.72,10.9778
44.76,7.1453
44.8,4.077
44.84,2.3557
44.88,1.50262
44.92,1.06231
44.96,0.811322
45,0.655146
45.04,0.551627
45.08,0.479874
45.12,0.42854
45.16,0.391006
45.2,0.363193
45.24,0.342478
45.28,0.327111
45.32,0.315893
45.36,0.307988
45.4,0.302798
45.44,0.299898
45.48,0.298981
45.52,0.299828
45.56,0.30229
45.6,0.306269
45.64,0.311711
45.68,0.318599
45.72,0.326948
45.76,0.336803
45.8,0.348241
45.84,0.361369
45.88,0.376329
45.92,0.393298
45.96,0.412498
46,0.434201
46.04,0.458739
46.08,0.486518
46.12,0.518037
46.16,0.553907
46.2,0.594888
46.24,0.641929
46.28,0.696225
46.32,0.75931
46.36,0.833168
46.4,0.92043
46.44,1.02467
46.48,1.15091
46.52,1.30665
46.56,1.50406
46.6,1.76434
46.64,2.12122
46.68,2.60701
46.72,3.21515
46.76,3.91797
46.8,4.79608
46.84,6.12814
46.88,8.41079
46.92,12.6268
46.96,21.0231
47,37.7157
47.04,65.2943
47.08,94.771
47.12,104.978
47.16,86.9073
47.2,56.7619
47.24,32.9199
47.28,19.1929
47.32,11.9472
47.36,8.0163
47.4,5.76834
47.44,4.39696
47.48,3.50323
47.52,2.88956
47.56,2.45285
47.6,2.13521
47.64,1.90214
47.68,1.7323
47.72,1.61238
47.76,1.53437
47.8,1.4942
47.84,1.49116
47.88,1.52798
47.92,1.61172
47.96,1.75572
48,1.98378
48.04,2.33885
48.08,2.90291
48.12,3.84654
48.16,5.56118
48.2,8.96527
48.24,15.7839
48.28,27.278
48.32,40.0259
48.36,45.0344
48.4,37.7177
48.44,24.5687
48.48,13.9403
48.52,7.9458
48.56,4.96705
48.6,3.42697
48.64,2.54721
48.68,1.9988
48.72,1.63568
48.76,1.38632
48.8,1.21292
48.84,1.09507
48.88,1.02294
48.92,0.995067
48.96,1.02019
49,1.12568
49.04,1.38239
49.08,1.95656
49.12,3.1218
49.16,4.94609
49.2,6.6413
49.24,6.85562
49.28,5.36603
49.32,3.40729
49.36,2.00769
49.4,1.25515
49.44,0.875697
49.48,0.669161
49.52,0.543723
49.56,0.46041
49.6,0.40132
49.64,0.357307
49.68,0.323269
49.72,0.296158
49.76,0.274051
49.8,0.255683
49.84,0.24019
49.88,0.226966
49.92,0.215576
49.96,0.205703
50,0.197113
50.04,0.189635
50.08,0.183148
50.12,0.177571
50.16,0.172861
50.2,0.169012
50.24,0.166064
50.28,0.164114
50.32,0.163341
50.36,0.164051
50.4,0.166763
50.44,0.172388
50.48,0.182598
50.52,0.200731
50.56,0.234154
50.6,0.300304
50.64,0.4367
50.68,0.691912
50.72,1.04142
50.76,1.28963
50.8,1.22276
50.84,0.900985
50.88,0.569662
50.92,0.359079
50.96,0.250892
51,0.19597
51.04,0.165321
51.08,0.146331
51.12,0.133573
51.16,0.124475
51.2,0.11769
51.24,0.112452
51.28,0.1083
51.32,0.104939
51.36,0.102178
51.4,0.0998848
51.44,0.097968
51.48,0.096363
51.52,0.0950236
51.56,0.0939168
51.6,0.0930196
51.64,0.0923165
51.68,0.0917979
51.72,0.09146
51.76,0.0913037
51.8,0.0913346
51.84,0.0915635
51.88,0.0920068
51.92,0.0926875
51.96,0.0936368
52,0.0948964
52.04,0.0965213
52.08,0.0985846
52.12,0.101185
52.16,0.104454
52.2,0.108576
52.24,0.113809
52.28,0.120522
52.32,0.129266
52.36,0.140882
52.4,0.156717
52.44,0.17904
52.48,0.21194
52.52,0.263451
52.56,0.351097
52.6,0.516235
52.64,0.849272
52.68,1.47493
52.72,2.35615
52.76,3.02887
52.8,2.92825
52.84,2.14796
52.88,1.3016
52.92,0.751532
52.96,0.468538
53,0.327284
53.04,0.250627
53.08,0.204691
53.12,0.174972
53.16,0.154654
53.2,0.140193
53.24,0.129588
53.28,0.121637
53.32,0.115582
53.36,0.110924
53.4,0.107324
53.44,0.104548
53.48,0.102428
53.52,0.100844
53.56,0.0997077
53.6,0.0989567
53.64,0.0985454
53.68,0.0984434
53.72,0.0986326
53.76,0.099107
53.8,0.0998725
53.84,0.10095
53.88,0.102379
53.92,0.104228
53.96,0.106608
54,0.10971
54.04,0.113863
54.08,0.119683
54.12,0.128435
54.16,0.142992
54.2,0.170106
54.24,0.222847
54.28,0.312251
54.32,0.415506
54.36,0.463935
54.4,0.41595
54.44,0.31711
54.48,0.2348
54.52,0.189166
54.56,0.168478
54.6,0.160016
54.64,0.157358
54.68,0.157814
54.72,0.160228
54.76,0.164072
54.8,0.169109
54.84,0.175252
54.88,0.182512
54.92,0.190972
54.96,0.200783
55,0.212173
55.04,0.225464
55.08,0.241106
55.12,0.25974
55.16,0.282288
55.2,0.310129
55.24,0.345398
55.28,0.391574
55.32,0.45469
55.36,0.546085
55.4,0.689352
55.44,0.938798
55.48,1.4201
55.52,2.35538
55.56,3.86005
55.6,5.40422
55.64,5.85981
55.68,4.8362
55.72,3.25588
55.76,2.07515
55.8,1.46372
55.84,1.20977
55.88,1.14001
55.92,1.18291
55.96,1.3321
56,1.63844
56.04,2.22849
56.08,3.24766
56.12,4.56226
56.16,5.53689
56.2,5.67407
56.24,5.43964
56.28,5.86128
56.32,7.91359
56.36,12.8698
56.4,22.0481
56.44,33.7001
56.48,40.6464
56.52,37.1066
56.56,27.0967
56.6,19.127
56.64,17.2224
56.68,20.2014
56.72,23.4984
56.76,22.2833
56.8,16.543
56.84,10.3097
56.88,6.18719
56.92,4.03805
56.96,2.98115
57,2.4689
57.04,2.28963
57.08,2.43137
57.12,3.06637
57.16,4.53897
57.2,6.9433
57.24,9.23495
57.28,9.57642
57.32,7.61932
57.36,5.02969
57.4,3.26592
57.44,2.56062
57.48,2.68755
57.52,3.37972
57.56,4.05281
57.6,3.9657
57.64,3.06386
57.68,2.00623
57.72,1.27505
57.76,0.878531
57.8,0.670173
57.84,0.550583
57.88,0.474735
57.92,0.423325
57.96,0.387479
58,0.362971
58.04,0.348165
58.08,0.343591
58.12,0.352878
58.16,0.386264
58.2,0.468861
58.24,0.646626
58.28,0.946654
58.32,1.26408
58.36,1.36062
58.4,1.14074
58.44,0.791445
58.48,0.520281
58.52,0.368806
58.56,0.292135
58.6,0.250929
58.64,0.226262
58.68,0.210119
58.72,0.198889
58.76,0.19076
58.8,0.184737
58.84,0.180233
58.88,0.176884
58.92,0.174456
58.96,0.17279
59,0.171783
59.04,0.171363
59.08,0.171485
59.12,0.172121
59.16,0.173259
59.2,0.174899
59.24,0.177053
59.28,0.179744
59.32,0.183009
59.36,0.186899
59.4,0.191484
59.44,0.196858
59.48,0.203151
59.52,0.210539
59.56,0.219277
59.6,0.229744
59.64,0.242537
59.68,0.258671
59.72,0.280039
59.76,0.310606
59.8,0.359512
59.84,0.446859
59.88,0.602063
59.92,0.822599
59.96,1.0093
59.98,1.04364