File: xrd_data/mp-19306_Fe3O4.csv
# 2theta, Intensity
10,0.00691753
10.04,0.00695266
10.08,0.00698817
10.12,0.00702405
10.16,0.00706032
10.2,0.00709699
10.24,0.00713405
10.28,0.00717152
10.32,0.0072094
10.36,0.0072477
10.4,0.00728644
10.44,0.00732561
10.48,0.00736522
10.52,0.00740529
10.56,0.00744582
10.6,0.00748681
10.64,0.00752829
10.68,0.00757026
10.72,0.00761272
10.76,0.00765568
10.8,0.00769917
10.84,0.00774318
10.88,0.00778773
10.92,0.00783282
10.96,0.00787847
11,0.00792469
11.04,0.00797149
11.08,0.00801889
11.12,0.00806689
11.16,0.0081155
11.2,0.00816475
11.24,0.00821464
11.28,0.00826518
11.32,0.0083164
11.36,0.0083683
11.4,0.00842089
11.44,0.00847421
11.48,0.00852825
11.52,0.00858303
11.56,0.00863858
11.6,0.00869491
11.64,0.00875204
11.68,0.00880998
11.72,0.00886875
11.76,0.00892837
11.8,0.00898887
11.84,0.00905025
11.88,0.00911255
11.92,0.00917579
11.96,0.00923998
12,0.00930515
12.04,0.00937132
12.08,0.00943852
12.12,0.00950677
12.16,0.0095761
12.2,0.00964653
12.24,0.0097181
12.28,0.00979083
12.32,0.00986475
12.36,0.0099399
12.4,0.0100163
12.44,0.010094
12.48,0.010173
12.52,0.0102533
12.56,0.0103351
12.6,0.0104183
12.64,0.0105029
12.68,0.0105891
12.72,0.0106768
12.76,0.0107661
12.8,0.010857
12.84,0.0109496
12.88,0.0110439
12.92,0.0111401
12.96,0.011238
13,0.0113379
13.04,0.0114397
13.08,0.0115435
13.12,0.0116493
13.16,0.0117573
13.2,0.0118675
13.24,0.0119799
13.28,0.0120947
13.32,0.0122119
13.36,0.0123315
13.4,0.0124537
13.44,0.0125785
13.48,0.0127061
13.52,0.0128365
13.56,0.0129698
13.6,0.0131061
13.64,0.0132455
13.68,0.0133881
13.72,0.0135341
13.76,0.0136835
13.8,0.0138365
13.84,0.0139932
13.88,0.0141537
13.92,0.0143182
13.96,0.0144868
14,0.0146596
14.04,0.0148369
14.08,0.0150188
14.12,0.0152055
14.16,0.0153971
14.2,0.0155939
14.24,0.015796
14.28,0.0160037
14.32,0.0162172
14.36,0.0164368
14.4,0.0166626
14.44,0.016895
14.48,0.0171342
14.52,0.0173805
14.56,0.0176343
14.6,0.0178958
14.64,0.0181654
14.68,0.0184435
14.72,0.0187305
14.76,0.0190267
14.8,0.0193326
14.84,0.0196486
14.88,0.0199753
14.92,0.0203131
14.96,0.0206626
15,0.0210244
15.04,0.0213992
15.08,0.0217874
15.12,0.0221899
15.16,0.0226075
15.2,0.0230408
15.24,0.0234908
15.28,0.0239583
15.32,0.0244444
15.36,0.0249501
15.4,0.0254765
15.44,0.0260248
15.48,0.0265964
15.52,0.0271925
15.56,0.0278146
15.6,0.0284645
15.64,0.0291438
15.68,0.0298544
15.72,0.0305983
15.76,0.0313778
15.8,0.0321952
15.84,0.0330531
15.88,0.0339542
15.92,0.0349018
15.96,0.035899
16,0.0369496
16.04,0.0380575
16.08,0.0392272
16.12,0.0404633
16.16,0.0417711
16.2,0.0431565
16.24,0.0446259
16.28,0.0461863
16.32,0.0478455
16.36,0.0496123
16.4,0.0514964
16.44,0.0535085
16.48,0.0556608
16.52,0.0579668
16.56,0.0604417
16.6,0.0631026
16.64,0.065969
16.68,0.0690629
16.72,0.0724094
16.76,0.0760369
16.8,0.0799783
16.84,0.0842712
16.88,0.0889591
16.92,0.0940926
16.96,0.0997304
17,0.105941
17.04,0.112807
17.08,0.120422
17.12,0.128902
17.16,0.138384
17.2,0.149031
17.24,0.161046
17.28,0.174675
17.32,0.19022
17.36,0.208062
17.4,0.228679
17.44,0.252681
17.48,0.280856
17.52,0.314237
17.56,0.354199
17.6,0.402603
17.64,0.462026
17.68,0.536115
17.72,0.630172
17.76,0.752162
17.8,0.914511
17.84,1.13754
17.88,1.45645
17.92,1.93709
17.96,2.71492
18,4.09904
18.04,6.81515
18.08,12.2427
18.12,21.4528
18.16,31.8383
18.2,36.1811
18.24,30.5295
18.28,19.9307
18.32,11.2345
18.36,6.2968
18.4,3.84224
18.44,2.57663
18.48,1.85477
18.52,1.40353
18.56,1.10158
18.6,0.889094
18.64,0.733669
18.68,0.616437
18.72,0.525773
18.76,0.45418
18.8,0.396644
18.84,0.3497
18.88,0.310894
18.92,0.278446
18.96,0.251036
19,0.227673
19.04,0.207598
19.08,0.190222
19.12,0.175082
19.16,0.161813
19.2,0.150118
19.24,0.139759
19.28,0.130541
19.32,0.122304
19.36,0.114913
19.4,0.108258
19.44,0.102246
19.48,0.0967961
19.52,0.0918421
19.56,0.0873261
19.6,0.0831989
19.64,0.0794179
19.68,0.075946
19.72,0.0727513
19.76,0.0698058
19.8,0.0670848
19.84,0.0645667
19.88,0.0622326
19.92,0.0600655
19.96,0.0580505
20,0.0561743
20.04,0.0544251
20.08,0.0527922
20.12,0.051266
20.16,0.049838
20.2,0.0485006
20.24,0.0472467
20.28,0.0460701
20.32,0.044965
20.36,0.0439263
20.4,0.0429492
20.44,0.0420295
20.48,0.0411633
20.52,0.0403469
20.56,0.0395771
20.6,0.0388509
20.64,0.0381655
20.68,0.0375183
20.72,0.0369071
20.76,0.0363297
20.8,0.0357841
20.84,0.0352685
20.88,0.0347811
20.92,0.0343204
20.96,0.0338849
21,0.0334733
21.04,0.0330843
21.08,0.0327167
21.12,0.0323695
21.16,0.0320416
21.2,0.0317321
21.24,0.0314402
21.28,0.0311648
21.32,0.0309055
21.36,0.0306613
21.4,0.0304316
21.44,0.0302158
21.48,0.0300133
21.52,0.0298235
21.56,0.029646
21.6,0.0294802
21.64,0.0293257
21.68,0.029182
21.72,0.0290488
21.76,0.0289256
21.8,0.0288122
21.84,0.0287081
21.88,0.0286131
21.92,0.0285268
21.96,0.0284491
22,0.0283795
22.04,0.028318
22.08,0.0282642
22.12,0.0282179
22.16,0.0281789
22.2,0.0281471
22.24,0.0281222
22.28,0.0281041
22.32,0.0280926
22.36,0.0280877
22.4,0.028089
22.44,0.0280965
22.48,0.0281102
22.52,0.0281298
22.56,0.0281552
22.6,0.0281864
22.64,0.0282233
22.68,0.0282658
22.72,0.0283138
22.76,0.0283673
22.8,0.0284261
22.84,0.0284902
22.88,0.0285596
22.92,0.0286342
22.96,0.028714
23,0.0287989
23.04,0.0288889
23.08,0.028984
23.12,0.0290842
23.16,0.0291893
23.2,0.0292995
23.24,0.0294147
23.28,0.0295348
23.32,0.02966
23.36,0.0297902
23.4,0.0299254
23.44,0.0300656
23.48,0.0302108
23.52,0.0303611
23.56,0.0305165
23.6,0.030677
23.64,0.0308426
23.68,0.0310134
23.72,0.0311894
23.76,0.0313707
23.8,0.0315572
23.84,0.0317492
23.88,0.0319465
23.92,0.0321493
23.96,0.0323577
24,0.0325716
24.04,0.0327913
24.08,0.0330167
24.12,0.0332479
24.16,0.0334851
24.2,0.0337283
24.24,0.0339777
24.28,0.0342332
24.32,0.0344951
24.36,0.0347634
24.4,0.0350383
24.44,0.0353199
24.48,0.0356083
24.52,0.0359037
24.56,0.0362061
24.6,0.0365158
24.64,0.0368329
24.68,0.0371576
24.72,0.0374899
24.76,0.0378303
24.8,0.0381787
24.84,0.0385354
24.88,0.0389005
24.92,0.0392744
24.96,0.0396572
25,0.0400492
25.04,0.0404506
25.08,0.0408615
25.12,0.0412824
25.16,0.0417135
25.2,0.042155
25.24,0.0426073
25.28,0.0430707
25.32,0.0435454
25.36,0.0440319
25.4,0.0445305
25.44,0.0450415
25.48,0.0455653
25.52,0.0461024
25.56,0.0466531
25.6,0.047218
25.64,0.0477974
25.68,0.0483919
25.72,0.0490019
25.76,0.0496281
25.8,0.0502708
25.84,0.0509309
25.88,0.0516087
25.92,0.0523051
25.96,0.0530206
26,0.0537561
26.04,0.0545121
26.08,0.0552895
26.12,0.0560892
26.16,0.056912
26.2,0.0577589
26.24,0.0586307
26.28,0.0595285
26.32,0.0604534
26.36,0.0614065
26.4,0.062389
26.44,0.0634021
26.48,0.0644473
26.52,0.0655259
26.56,0.0666394
26.6,0.0677894
26.64,0.0689776
26.68,0.0702057
26.72,0.0714757
26.76,0.0727896
26.8,0.0741495
26.84,0.0755577
26.88,0.0770165
26.92,0.0785287
26.96,0.080097
27,0.0817242
27.04,0.0834137
27.08,0.0851686
27.12,0.0869927
27.16,0.0888898
27.2,0.090864
27.24,0.0929199
27.28,0.0950622
27.32,0.0972961
27.36,0.0996271
27.4,0.102061
27.44,0.104605
27.48,0.107266
27.52,0.11005
27.56,0.112968
27.6,0.116026
27.64,0.119236
27.68,0.122608
27.72,0.126153
27.76,0.129884
27.8,0.133815
27.84,0.137961
27.88,0.142339
27.92,0.146967
27.96,0.151865
28,0.157055
28.04,0.162563
28.08,0.168416
28.12,0.174643
28.16,0.18128
28.2,0.188364
28.24,0.195937
28.28,0.204047
28.32,0.212748
28.36,0.2221
28.4,0.232172
28.44,0.243043
28.48,0.2548
28.52,0.267546
28.56,0.281397
28.6,0.296489
28.64,0.312977
28.68,0.331044
28.72,0.3509
28.76,0.372797
28.8,0.397028
28.84,0.423943
28.88,0.453962
28.92,0.487587
28.96,0.525429
29,0.568236
29.04,0.616926
29.08,0.672643
29.12,0.736824
29.16,0.811296
29.2,0.898408
29.24,1.00122
29.28,1.12379
29.32,1.27157
29.36,1.45207
29.4,1.67582
29.44,1.95799
29.48,2.32112
29.52,2.7999
29.56,3.45016
29.6,4.36664
29.64,5.72178
29.68,7.85872
29.72,11.5361
29.76,18.5488
29.8,32.7005
29.84,58.6505
29.88,93.1956
29.92,116.352
29.96,108.099
30,76.0673
30.04,44.3089
30.08,24.5476
30.12,14.5189
30.16,9.47307
30.2,6.69187
30.24,5.00042
30.28,3.89126
30.32,3.12259
30.36,2.56711
30.4,2.15228
30.44,1.83415
30.48,1.58479
30.52,1.38571
30.56,1.22427
30.6,1.09158
30.64,0.98124
30.68,0.888545
30.72,0.80997
30.76,0.742832
30.8,0.68506
30.84,0.635036
30.88,0.591477
30.92,0.553358
30.96,0.519853
31,0.490287
31.04,0.464108
31.08,0.440857
31.12,0.420154
31.16,0.401679
31.2,0.385164
31.24,0.370381
31.28,0.357135
31.32,0.345262
31.36,0.334617
31.4,0.32508
31.44,0.316543
31.48,0.308914
31.52,0.302114
31.56,0.296073
31.6,0.290729
31.64,0.286031
31.68,0.28193
31.72,0.278387
31.76,0.275366
31.8,0.272836
31.84,0.270769
31.88,0.269142
31.92,0.267935
31.96,0.26713
32,0.266712
32.04,0.266669
32.08,0.266991
32.12,0.267668
32.16,0.268695
32.2,0.270067
32.24,0.27178
32.28,0.273835
32.32,0.276231
32.36,0.278969
32.4,0.282053
32.44,0.285488
32.48,0.289281
32.52,0.293438
32.56,0.29797
32.6,0.302889
32.64,0.308206
32.68,0.313936
32.72,0.320096
32.76,0.326705
32.8,0.333784
32.84,0.341355
32.88,0.349444
32.92,0.35808
32.96,0.367294
33,0.37712
33.04,0.387598
33.08,0.398768
33.12,0.410678
33.16,0.423379
33.2,0.436929
33.24,0.451389
33.28,0.466829
33.32,0.483327
33.36,0.500969
33.4,0.51985
33.44,0.540075
33.48,0.561764
33.52,0.58505
33.56,0.610081
33.6,0.637025
33.64,0.666071
33.68,0.697431
33.72,0.731347
33.76,0.768095
33.8,0.807987
33.84,0.851382
33.88,0.898694
33.92,0.950396
33.96,1.00704
34,1.06927
34.04,1.13782
34.08,1.21359
34.12,1.29761
34.16,1.39112
34.2,1.49558
34.24,1.61278
34.28,1.74487
34.32,1.89448
34.36,2.06484
34.4,2.25998
34.44,2.48496
34.48,2.7462
34.52,3.05195
34.56,3.41296
34.6,3.84348
34.64,4.36263
34.68,4.99669
34.72,5.78252
34.76,6.77316
34.8,8.04725
34.84,9.72567
34.88,12.0024
34.92,15.2061
34.96,19.9324
35,27.3614
35.04,40.0909
35.08,64.2624
35.12,113.04
35.16,203.265
35.2,325.785
35.24,411.859
35.28,387.764
35.32,275.833
35.36,161.517
35.4,89.3473
35.44,52.559
35.48,34.0975
35.52,23.9696
35.56,17.8346
35.6,13.8237
35.64,11.0507
35.68,9.05092
35.72,7.56045
35.76,6.41985
35.8,5.52798
35.84,4.8181
35.88,4.24469
35.92,3.77588
35.96,3.38882
36,3.06686
36.04,2.79766
36.08,2.57206
36.12,2.38317
36.16,2.22596
36.2,2.09682
36.24,1.99341
36.28,1.91457
36.32,1.86038
36.36,1.83244
36.4,1.8343
36.44,1.87241
36.48,1.95785
36.52,2.10975
36.56,2.36225
36.6,2.78033
36.64,3.49956
36.68,4.83168
36.72,7.50644
36.76,12.8743
36.8,21.8498
36.84,31.6092
36.88,35.1485
36.92,29.1978
36.96,18.9924
37,10.8782
37.04,6.32986
37.08,4.06265
37.12,2.87802
37.16,2.19061
37.2,1.75285
37.24,1.45409
37.28,1.23933
37.32,1.0786
37.36,0.954381
37.4,0.855799
37.44,0.77582
37.48,0.709711
37.52,0.654187
37.56,0.606905
37.6,0.566157
37.64,0.530669
37.68,0.499476
37.72,0.471834
37.76,0.447161
37.8,0.424995
37.84,0.404966
37.88,0.386775
37.92,0.370177
37.96,0.354967
38,0.340977
38.04,0.328064
38.08,0.31611
38.12,0.30501
38.16,0.294677
38.2,0.285037
38.24,0.276022
38.28,0.267575
38.32,0.259647
38.36,0.252194
38.4,0.245176
38.44,0.23856
38.48,0.232314
38.52,0.22641
38.56,0.220825
38.6,0.215537
38.64,0.210525
38.68,0.205772
38.72,0.201261
38.76,0.196978
38.8,0.192909
38.84,0.189042
38.88,0.185366
38.92,0.181871
38.96,0.178547
39,0.175387
39.04,0.172382
39.08,0.169526
39.12,0.166811
39.16,0.164232
39.2,0.161784
39.24,0.159461
39.28,0.157259
39.32,0.155174
39.36,0.153201
39.4,0.151338
39.44,0.149582
39.48,0.14793
39.52,0.146379
39.56,0.144926
39.6,0.143571
39.64,0.142312
39.68,0.141147
39.72,0.140075
39.76,0.139095
39.8,0.138207
39.84,0.13741
39.88,0.136704
39.92,0.13609
39.96,0.135567
40,0.135136
40.04,0.134799
40.08,0.134557
40.12,0.13441
40.16,0.134362
40.2,0.134413
40.24,0.134567
40.28,0.134827
40.32,0.135195
40.36,0.135675
40.4,0.136272
40.44,0.13699
40.48,0.137835
40.52,0.138812
40.56,0.139927
40.6,0.141187
40.64,0.142602
40.68,0.144178
40.72,0.145927
40.76,0.147858
40.8,0.149983
40.84,0.152317
40.88,0.154873
40.92,0.157667
40.96,0.160719
41,0.164048
41.04,0.167677
41.08,0.171631
41.12,0.175939
41.16,0.180633
41.2,0.185749
41.24,0.191327
41.28,0.197413
41.32,0.204061
41.36,0.211329
41.4,0.219285
41.44,0.228008
41.48,0.237588
41.52,0.248128
41.56,0.259749
41.6,0.272591
41.64,0.28682
41.68,0.302628
41.72,0.320245
41.76,0.339944
41.8,0.362052
41.84,0.386964
41.88,0.415159
41.92,0.447224
41.96,0.483886
42,0.526049
42.04,0.574854
42.08,0.631756
42.12,0.698634
42.16,0.777945
42.2,0.87296
42.24,0.988108
42.28,1.12951
42.32,1.30581
42.36,1.52958
42.4,1.81965
42.44,2.20537
42.48,2.7346
42.52,3.49004
42.56,4.62569
42.6,6.45699
42.64,9.70069
42.68,16.0437
42.72,28.7511
42.76,50.5812
42.8,75.8316
42.84,87.3304
42.88,74.6692
42.92,49.2292
42.96,27.8548
43,15.5813
43.04,9.46943
43.08,6.33006
43.12,4.54767
43.16,3.43735
43.2,2.69623
43.24,2.17563
43.28,1.79531
43.32,1.50873
43.36,1.28723
43.4,1.11241
43.44,0.971941
43.48,0.857344
43.52,0.762604
43.56,0.683368
43.6,0.616413
43.64,0.559316
43.68,0.510225
43.72,0.467704
43.76,0.430626
43.8,0.398097
43.84,0.369398
43.88,0.343948
43.92,0.321274
43.96,0.300982
44,0.282751
44.04,0.266308
44.08,0.251426
44.12,0.237914
44.16,0.225606
44.2,0.214365
44.24,0.20407
44.28,0.194617
44.32,0.185918
44.36,0.177893
44.4,0.170476
44.44,0.163607
44.48,0.157233
44.52,0.151308
44.56,0.145792
44.6,0.140649
44.64,0.135846
44.68,0.131354
44.72,0.127149
44.76,0.123207
44.8,0.119507
44.84,0.116032
44.88,0.112765
44.92,0.10969
44.96,0.106795
45,0.104067
45.04,0.101496
45.08,0.0990705
45.12,0.0967828
45.16,0.0946244
45.2,0.0925884
45.24,0.0906681
45.28,0.088858
45.32,0.0871528
45.36,0.0855482
45.4,0.0840403
45.44,0.082626
45.48,0.0813026
45.52,0.0800681
45.56,0.0789211
45.6,0.077861
45.64,0.0768878
45.68,0.0760022
45.72,0.0752061
45.76,0.074502
45.8,0.073894
45.84,0.0733874
45.88,0.0729891
45.92,0.0727083
45.96,0.0725566
46,0.0725489
46.04,0.0727043
46.08,0.0730472
46.12,0.0736088
46.16,0.07443
46.2,0.075564
46.24,0.0770818
46.28,0.0790788
46.32,0.0816859
46.36,0.0850859
46.4,0.0895411
46.44,0.0954379
46.48,0.103365
46.52,0.114259
46.56,0.129682
46.6,0.15242
46.64,0.187867
46.68,0.2476
46.72,0.35878
46.76,0.582507
46.8,1.01312
46.84,1.65693
46.88,2.21565
46.92,2.2386
46.96,1.70405
47,1.05142
47.04,0.602585
47.08,0.366577
47.12,0.249162
47.16,0.186167
47.2,0.148703
47.24,0.124496
47.28,0.107869
47.32,0.0959097
47.36,0.0869932
47.4,0.0801495
47.44,0.0747695
47.48,0.0704545
47.52,0.0669339
47.56,0.064019
47.6,0.0615747
47.64,0.0595021
47.68,0.0577275
47.72,0.056195
47.76,0.0548616
47.8,0.0536937
47.84,0.0526649
47.88,0.051754
47.92,0.0509441
47.96,0.0502211
48,0.0495739
48.04,0.0489929
48.08,0.0484704
48.12,0.0479997
48.16,0.0475755
48.2,0.047193
48.24,0.0468482
48.28,0.0465378
48.32,0.0462588
48.36,0.0460087
48.4,0.0457853
48.44,0.0455868
48.48,0.0454115
48.52,0.0452579
48.56,0.0451249
48.6,0.0450114
48.64,0.0449163
48.68,0.044839
48.72,0.0447786
48.76,0.0447346
48.8,0.0447063
48.84,0.0446934
48.88,0.0446955
48.92,0.0447122
48.96,0.0447432
49,0.0447883
49.04,0.0448473
49.08,0.0449201
49.12,0.0450067
49.16,0.0451068
49.2,0.0452206
49.24,0.045348
49.28,0.0454891
49.32,0.045644
49.36,0.0458127
49.4,0.0459955
49.44,0.0461924
49.48,0.0464038
49.52,0.0466297
49.56,0.0468707
49.6,0.0471268
49.64,0.0473985
49.68,0.0476861
49.72,0.04799
49.76,0.0483107
49.8,0.0486487
49.84,0.0490044
49.88,0.0493784
49.92,0.0497715
49.96,0.0501841
50,0.050617
50.04,0.0510709
50.08,0.0515468
50.12,0.0520454
50.16,0.0525676
50.2,0.0531146
50.24,0.0536874
50.28,0.0542871
50.32,0.054915
50.36,0.0555724
50.4,0.0562608
50.44,0.0569818
50.48,0.0577369
50.52,0.0585282
50.56,0.0593573
50.6,0.0602266
50.64,0.0611383
50.68,0.0620948
50.72,0.0630987
50.76,0.0641531
50.8,0.065261
50.84,0.0664259
50.88,0.0676515
50.92,0.0689417
50.96,0.0703012
51,0.0717347
51.04,0.0732475
51.08,0.0748455
51.12,0.076535
51.16,0.0783231
51.2,0.0802176
51.24,0.0822272
51.28,0.0843612
51.32,0.0866304
51.36,0.0890466
51.4,0.0916227
51.44,0.0943737
51.48,0.097316
51.52,0.100468
51.56,0.103851
51.6,0.107488
51.64,0.111407
51.68,0.115638
51.72,0.120215
51.76,0.12518
51.8,0.130578
51.84,0.136463
51.88,0.142897
51.92,0.149953
51.96,0.157715
52,0.166284
52.04,0.17578
52.08,0.186345
52.12,0.198149
52.16,0.2114
52.2,0.22635
52.24,0.243311
52.28,0.262667
52.32,0.284902
52.36,0.31063
52.4,0.340638
52.44,0.375948
52.48,0.417912
52.52,0.468344
52.56,0.529725
52.6,0.605527
52.64,0.700725
52.68,0.822671
52.72,0.982605
52.76,1.19846
52.8,1.50036
52.84,1.94241
52.88,2.63045
52.92,3.79428
52.96,5.97541
53,10.3684
53.04,18.6797
53.08,30.5951
53.12,40.0541
53.16,39.2014
53.2,28.8318
53.24,17.2132
53.28,9.54258
53.32,5.57331
53.36,3.59438
53.4,2.5237
53.44,1.88301
53.48,1.46803
53.52,1.18323
53.56,0.979099
53.6,0.827771
53.64,0.712534
53.68,0.622841
53.72,0.551758
53.76,0.494574
53.8,0.447989
53.84,0.409638
53.88,0.377791
53.92,0.351156
53.96,0.328754
54,0.309833
54.04,0.293808
54.08,0.280217
54.12,0.268696
54.16,0.25895
54.2,0.250744
54.24,0.243885
54.28,0.238218
54.32,0.233615
54.36,0.229972
54.4,0.227205
54.44,0.225244
54.48,0.224034
54.52,0.223532
54.56,0.223704
54.6,0.224526
54.64,0.22598
54.68,0.228058
54.72,0.230757
54.76,0.23408
54.8,0.23804
54.84,0.242652
54.88,0.24794
54.92,0.253935
54.96,0.260674
55,0.268205
55.04,0.27658
55.08,0.285865
55.12,0.296136
55.16,0.307479
55.2,0.319999
55.24,0.333813
55.28,0.34906
55.32,0.365903
55.36,0.384529
55.4,0.405161
55.44,0.428057
55.48,0.453525
55.52,0.48193
55.56,0.513706
55.6,0.549373
55.64,0.589562
55.68,0.635037
55.72,0.686736
55.76,0.745818
55.8,0.813728
55.84,0.892287
55.88,0.983818
55.92,1.09132
55.96,1.2187
56,1.37119
56.04,1.55582
56.08,1.78235
56.12,2.06452
56.16,2.42227
56.2,2.8855
56.24,3.50063
56.28,4.34328
56.32,5.54376
56.36,7.34387
56.4,10.2368
56.44,15.3392
56.48,25.2835
56.52,45.2433
56.56,79.8945
56.6,120.865
56.64,140.853
56.68,121.861
56.72,81.0516
56.76,46.0095
56.8,25.6777
56.84,15.5349
56.88,10.3427
56.92,7.40731
56.96,5.58499
57,4.37175
57.04,3.52121
57.08,2.90092
57.12,2.43418
57.16,2.07394
57.2,1.78997
57.24,1.56208
57.28,1.37641
57.32,1.2231
57.36,1.09506
57.4,0.987013
57.44,0.895019
57.48,0.816056
57.52,0.747785
57.56,0.68837
57.6,0.636355
57.64,0.590573
57.68,0.550079
57.72,0.514101
57.76,0.482004
57.8,0.453263
57.84,0.427437
57.88,0.404158
57.92,0.383115
57.96,0.364042
58,0.346713
58.04,0.330935
58.08,0.31654
58.12,0.303384
58.16,0.291342
58.2,0.280304
58.24,0.270174
58.28,0.260869
58.32,0.252314
58.36,0.244445
58.4,0.237204
58.44,0.23054
58.48,0.224408
58.52,0.218768
58.56,0.213583
58.6,0.208822
58.64,0.204456
58.68,0.200459
58.72,0.19681
58.76,0.193487
58.8,0.190472
58.84,0.18775
58.88,0.185305
58.92,0.183126
58.96,0.1812
59,0.179519
59.04,0.178073
59.08,0.176855
59.12,0.175859
59.16,0.175079
59.2,0.174511
59.24,0.174152
59.28,0.173999
59.32,0.17405
59.36,0.174306
59.4,0.174765
59.44,0.175429
59.48,0.1763
59.52,0.177381
59.56,0.178674
59.6,0.180185
59.64,0.181918
59.68,0.183881
59.72,0.18608
59.76,0.188525
59.8,0.191224
59.84,0.194189
59.88,0.197432
59.92,0.200967
59.96,0.204809
59.98,0.20685